# Created by:        SpecsLab Prodigy, Version 4.109.1-r116302 
#
# XY-Serializer Export Settings:
#   Comment Prefix:           #
#   Output Meta Data:         yes
#   Energy Axis:              Binding Energy
#   Count Rate:               Counts per Second
#   Separate Scan Data:       yes
#   Separate Channel Data:    no
#   External Channel Data:    no
#   Transmission Function:    no
#   Error Bar:                no
#   Operation Results:        no
#   Time Zone Format:         Local Time
#
# Group:                        UHV manip
#
# Region:                       S2p
# Spectrum ID:                  21
# Acquisition Date:             02/01/24 18:36:37 UTC+1
# Analysis Method:              XPS
# Analyzer:                     Phoibos DLD
# Analyzer Lens:                AngleResolvedMode30:1.5kV
# Analyzer Slit:                3:1x20\B:open
# Scan Mode:                    FixedAnalyzerTransmission
# Scan Variable:                Binding Energy
# Curves/Scan:                  1
# Values/Curve:                 361
# Dwell Time:                   0.1
# Excitation Energy:            350
# Binding Energy:               175
# Pass Energy:                  50
# Bias Voltage:                 5
# Detector Voltage:             1915
# Eff. Workfunction:            4.37
# Source:                       Monochromator
# Comment:                      
# OrdinateRange:                [-22.000000, 22.000000]

# Cycle: 0
#
# Number of Scans: 1

# Cycle: 0, Curve: 0, Scan: 0
#
# Acquisition Date:             02/01/24 18:35:44 UTC+1
# ColumnLabels:                 energy counts/s
#
175  1068867.1
174.95  1067620.3
174.9  1068399.4
174.85  1063503.7
174.8  1070108.6
174.75  1071181.2
174.7  1065853.2
174.65  1063082.4
174.6  1061683.9
174.55  1065848.8
174.5  1066320.4
174.45  1066672.8
174.4  1065828
174.35  1074805.3
174.3  1068300.7
174.25  1069858.7
174.2  1071055.9
174.15  1066567
174.1  1068848.5
174.05  1074060.9
174  1075529.7
173.95  1075206
173.9  1072402.2
173.85  1072435.5
173.8  1070610.2
173.75  1071608.9
173.7  1077537.4
173.65  1073960.9
173.6  1075954.1
173.55  1073969.2
173.5  1069434.4
173.45  1079786.1
173.4  1074510.2
173.35  1077295.9
173.3  1073419
173.25  1075238.6
173.2  1075531.2
173.15  1075922.7
173.1  1077326.1
173.05  1080324.7
173  1081475.5
172.95  1078393.4
172.9  1077627.5
172.85  1079556.1
172.8  1084069.8
172.75  1079495.9
172.7  1076778.3
172.65  1079237.7
172.6  1082827.5
172.55  1087183.8
172.5  1083565.8
172.45  1086768.4
172.4  1082624.5
172.35  1085143.8
172.3  1086715.3
172.25  1090965.5
172.2  1092633.1
172.15  1091394.1
172.1  1088993.8
172.05  1090799.1
172  1090828.1
171.95  1091035.9
171.9  1093988.6
171.85  1098527.8
171.8  1100170.5
171.75  1095782.9
171.7  1096294.7
171.65  1098905.1
171.6  1097670.9
171.55  1100203.6
171.5  1103361
171.45  1095448.4
171.4  1098065.1
171.35  1104890.4
171.3  1107475.4
171.25  1112297.9
171.2  1107022.3
171.15  1109253.7
171.1  1113105.2
171.05  1119539
171  1118383
170.95  1119788.5
170.9  1122172.4
170.85  1118666.4
170.8  1120435.8
170.75  1123916
170.7  1129938.4
170.65  1121997.2
170.6  1129389.7
170.55  1132046.1
170.5  1135190.9
170.45  1133538.6
170.4  1132484.9
170.35  1136123.2
170.3  1133407.2
170.25  1132616.4
170.2  1138825
170.15  1139494.1
170.1  1139647
170.05  1138151
170  1134758.4
169.95  1141175.6
169.9  1140869.2
169.85  1141311
169.8  1144563.6
169.75  1141427
169.7  1143588.2
169.65  1137654.6
169.6  1145239.9
169.55  1145686.3
169.5  1142185.1
169.45  1148066.1
169.4  1150238.8
169.35  1146110.2
169.3  1148890.2
169.25  1151597.8
169.2  1150262.5
169.15  1149030
169.1  1151718.5
169.05  1155315.6
169  1153518.2
168.95  1150453.3
168.9  1152755.1
168.85  1147344.1
168.8  1150696.7
168.75  1147932.4
168.7  1150903.1
168.65  1152894.3
168.6  1154655.2
168.55  1152471.1
168.5  1149816.9
168.45  1147214.8
168.4  1147261.6
168.35  1147507.6
168.3  1146379
168.25  1145980.3
168.2  1142213
168.15  1144871
168.1  1146023.6
168.05  1137170.1
168  1139651.2
167.95  1136125.8
167.9  1136760.4
167.85  1136387.5
167.8  1137508.8
167.75  1132021.9
167.7  1134641.6
167.65  1140046.4
167.6  1138716.6
167.55  1137650.7
167.5  1137757.2
167.45  1136062.3
167.4  1138177.1
167.35  1134174.9
167.3  1136530
167.25  1139543.7
167.2  1135965.3
167.15  1136198.6
167.1  1136427.8
167.05  1143272.9
167  1141875.3
166.95  1143449.2
166.9  1142035.5
166.85  1139814.8
166.8  1142713.3
166.75  1143323
166.7  1142855.7
166.65  1149318.6
166.6  1147695.4
166.55  1149180.8
166.5  1143902.3
166.45  1150297.1
166.4  1146008.6
166.35  1149154.6
166.3  1146066.5
166.25  1151405.9
166.2  1156439.1
166.15  1148622.7
166.1  1153830.8
166.05  1158411.6
166  1157342.7
165.95  1156423.8
165.9  1157426.7
165.85  1157739.3
165.8  1159990.9
165.75  1167528.5
165.7  1171019
165.65  1168367.8
165.6  1170980.3
165.55  1178124.4
165.5  1183310.1
165.45  1185504.6
165.4  1186871
165.35  1195043.1
165.3  1198867.9
165.25  1200499.7
165.2  1198947.3
165.15  1206820.7
165.1  1215904.6
165.05  1218387.8
165  1220195.2
164.95  1222431
164.9  1225030.3
164.85  1233797.2
164.8  1232955.4
164.75  1240480.8
164.7  1245825.3
164.65  1248779.7
164.6  1247432
164.55  1244508.5
164.5  1247876.8
164.45  1250431.3
164.4  1251321.9
164.35  1254198
164.3  1258814.6
164.25  1268853.4
164.2  1266620.8
164.15  1273934.7
164.1  1278095.3
164.05  1282911.8
164  1292897.2
163.95  1298862.9
163.9  1303910.9
163.85  1311494.4
163.8  1328711.1
163.75  1334204.4
163.7  1346551.1
163.65  1360804.2
163.6  1369064.2
163.55  1378519.9
163.5  1389371.4
163.45  1395561
163.4  1398001.4
163.35  1409446.4
163.3  1407989.1
163.25  1409478.1
163.2  1409709.2
163.15  1407944.4
163.1  1399293.9
163.05  1395819.5
163  1388340.8
162.95  1368382.2
162.9  1352293
162.85  1342666.3
162.8  1330819.8
162.75  1322639.9
162.7  1312378.7
162.65  1307134
162.6  1304295.9
162.55  1308240.2
162.5  1320586.1
162.45  1331276
162.4  1345443.3
162.35  1363965.1
162.3  1379594.9
162.25  1395810.1
162.2  1411831.9
162.15  1429462.4
162.1  1434449.8
162.05  1446696.7
162  1449855.2
161.95  1452589.7
161.9  1447255.6
161.85  1432725.9
161.8  1425692.9
161.75  1405700.2
161.7  1376051.3
161.65  1350086.7
161.6  1328874.7
161.55  1299085
161.5  1274697.3
161.45  1256959.9
161.4  1235637.3
161.35  1217740.9
161.3  1215163.9
161.25  1215098.2
161.2  1212779.7
161.15  1205082.7
161.1  1209769.9
161.05  1209199.1
161  1207522.8
160.95  1204277.3
160.9  1195852.8
160.85  1183116.1
160.8  1177379.5
160.75  1177641.3
160.7  1169033.8
160.65  1162873.4
160.6  1161752.6
160.55  1152082.1
160.5  1157141.4
160.45  1153101.7
160.4  1155500.1
160.35  1157530.7
160.3  1148225.5
160.25  1151340.4
160.2  1156855.1
160.15  1148242.2
160.1  1147384.5
160.05  1154333.7
160  1152725.7
159.95  1150988
159.9  1151737.9
159.85  1154029.9
159.8  1150887.9
159.75  1145999.4
159.7  1147645.9
159.65  1147186.2
159.6  1149216
159.55  1153351.8
159.5  1153442.6
159.45  1148193.9
159.4  1150026.3
159.35  1149496.5
159.3  1150510.1
159.25  1151565.2
159.2  1150561.5
159.15  1156320.3
159.1  1153309.4
159.05  1153941.6
159  1153143.4
158.95  1153676.9
158.9  1153982.6
158.85  1153264.3
158.8  1149856.7
158.75  1153366.6
158.7  1154478.5
158.65  1157315.2
158.6  1158585.8
158.55  1155599.9
158.5  1156735.3
158.45  1156980.7
158.4  1156793
158.35  1156553.3
158.3  1159178.2
158.25  1152995.2
158.2  1155583.5
158.15  1159545.8
158.1  1159329.8
158.05  1156003.7
158  1159311.5
157.95  1157531.8
157.9  1163411.5
157.85  1158944.2
157.8  1159352.1
157.75  1162803
157.7  1160822.1
157.65  1161667.9
157.6  1160214
157.55  1161852.6
157.5  1159660.9
157.45  1163147
157.4  1165971.5
157.35  1169254.5
157.3  1171580.4
157.25  1170322.3
157.2  1166119.2
157.15  1167566.5
157.1  1171941.1
157.05  1169455.8
157  1168033.5

# Cycle: 0, Curve: 0, Scan: 1
#
# Acquisition Date:             02/01/24 18:36:37 UTC+1
# ColumnLabels:                 energy counts/s
#
175  1099948.8
174.95  1094832.7
174.9  1099018.9
174.85  1097401.6
174.8  1102458.9
174.75  1105740.5
174.7  1096052.8
174.65  1095195.7
174.6  1096614
174.55  1098370.3
174.5  1105304.5
174.45  1101610.9
174.4  1097397.7
174.35  1100161.6
174.3  1100901.4
174.25  1103758.6
174.2  1102058.6
174.15  1102022.2
174.1  1101752
174.05  1099749.5
174  1100392.6
173.95  1101176.7
173.9  1102522.6
173.85  1107140.8
173.8  1106508.5
173.75  1103791.7
173.7  1104709.3
173.65  1106073.5
173.6  1107227.9
173.55  1105164.7
173.5  1106205.1
173.45  1105948.3
173.4  1107700.1
173.35  1104156.9
173.3  1109847.9
173.25  1107097.3
173.2  1106233.9
173.15  1108075.2
173.1  1107564.4
173.05  1105857.6
173  1112005.6
172.95  1113781.3
172.9  1109856.6
172.85  1108459.3
172.8  1106688.7
172.75  1111126.2
172.7  1107053.5
172.65  1111546.2
172.6  1112901.8
172.55  1114412.5
172.5  1112664.7
172.45  1111117.1
172.4  1107205.7
172.35  1111709
172.3  1121726.1
172.25  1117994.8
172.2  1115363.8
172.15  1118918.2
172.1  1117156.4
172.05  1116703.7
172  1121594.2
171.95  1119205.2
171.9  1114256.1
171.85  1120948.1
171.8  1119733
171.75  1119339.4
171.7  1127297.8
171.65  1130903.1
171.6  1127424.7
171.55  1126116.6
171.5  1129024.3
171.45  1126889.3
171.4  1128528.6
171.35  1127257
171.3  1129531
171.25  1126444.8
171.2  1129544.8
171.15  1129436
171.1  1128260
171.05  1136152.4
171  1132647.8
170.95  1132839.7
170.9  1140827.2
170.85  1144703.8
170.8  1142331.9
170.75  1144942.2
170.7  1145074.4
170.65  1142532.3
170.6  1144803.8
170.55  1151790.8
170.5  1150803.6
170.45  1147567.3
170.4  1150112.7
170.35  1155925.7
170.3  1153710.9
170.25  1145939.2
170.2  1150403.6
170.15  1153318.2
170.1  1156182.7
170.05  1161073.7
170  1160226.3
169.95  1162974.2
169.9  1164310.6
169.85  1160883
169.8  1163884.9
169.75  1162892.5
169.7  1166748
169.65  1157232.1
169.6  1162517.6
169.55  1164816.6
169.5  1165509.3
169.45  1171488.7
169.4  1168866.3
169.35  1168856.1
169.3  1172693.2
169.25  1170759.2
169.2  1168836.1
169.15  1169368.6
169.1  1164472.7
169.05  1172762.6
169  1169034.4
168.95  1169644.6
168.9  1170370.4
168.85  1175868.5
168.8  1171453
168.75  1173675
168.7  1173138.3
168.65  1176345.4
168.6  1169893.5
168.55  1171206.7
168.5  1167872.9
168.45  1169701.7
168.4  1172659.6
168.35  1172945.9
168.3  1172014.1
168.25  1168750.7
168.2  1170325.4
168.15  1165642.9
168.1  1167948.1
168.05  1167682.2
168  1166444.8
167.95  1168163.3
167.9  1167714
167.85  1166598.9
167.8  1168500.3
167.75  1163257
167.7  1163297.2
167.65  1164039.8
167.6  1162242.5
167.55  1163250.7
167.5  1159348.1
167.45  1162985.1
167.4  1164683.2
167.35  1169850.7
167.3  1165764.1
167.25  1164235.8
167.2  1168169.7
167.15  1166808.4
167.1  1164383.3
167.05  1166455.1
167  1173575
166.95  1170324.5
166.9  1162976.9
166.85  1170895.9
166.8  1178548
166.75  1174349
166.7  1172599.6
166.65  1175971.9
166.6  1178428.2
166.55  1172498.7
166.5  1176198.1
166.45  1171757
166.4  1174239.8
166.35  1173884.8
166.3  1180670.8
166.25  1180228
166.2  1182417.6
166.15  1179752.2
166.1  1183683.4
166.05  1186281.4
166  1184635.4
165.95  1184969.8
165.9  1183904.8
165.85  1183933.7
165.8  1189657
165.75  1186633.7
165.7  1188963.9
165.65  1193074.9
165.6  1195656.7
165.55  1203738.2
165.5  1210973.9
165.45  1215352.6
165.4  1213550.9
165.35  1223452
165.3  1226106.9
165.25  1230912.3
165.2  1233714.6
165.15  1240597.4
165.1  1239406.3
165.05  1244998.7
165  1250688.5
164.95  1254408.5
164.9  1259362.4
164.85  1258152.2
164.8  1265887.2
164.75  1271325.5
164.7  1276492
164.65  1276665.9
164.6  1273005.5
164.55  1280256.2
164.5  1277195.2
164.45  1277742
164.4  1282297.6
164.35  1283636.4
164.3  1287282.3
164.25  1296159.4
164.2  1299584
164.15  1306828.5
164.1  1308040.3
164.05  1315385.2
164  1321414
163.95  1323106.9
163.9  1337533.3
163.85  1343229.8
163.8  1352596.1
163.75  1358285.7
163.7  1368564.3
163.65  1387801.2
163.6  1396389.9
163.55  1402889.4
163.5  1411568.3
163.45  1418976.7
163.4  1427622.9
163.35  1432619.9
163.3  1431634.3
163.25  1431641.4
163.2  1431881.8
163.15  1431051.6
163.1  1428154.6
163.05  1419183
163  1408716.1
162.95  1391975.1
162.9  1382482.4
162.85  1365240.8
162.8  1358788.7
162.75  1343917.2
162.7  1334555
162.65  1332623.1
162.6  1335244.9
162.55  1332846.7
162.5  1343524.9
162.45  1352061
162.4  1370026.2
162.35  1392606.8
162.3  1407902.9
162.25  1421400.6
162.2  1433955.6
162.15  1453497.9
162.1  1459435.2
162.05  1466820.5
162  1468657.9
161.95  1469628.5
161.9  1466025
161.85  1455906.1
161.8  1440650.7
161.75  1427021.6
161.7  1410355.4
161.65  1379793.3
161.6  1356261.2
161.55  1328827.4
161.5  1305586.1
161.45  1288177.6
161.4  1275316.3
161.35  1261394.3
161.3  1253082.3
161.25  1247451.8
161.2  1245130.7
161.15  1245542.3
161.1  1239261.9
161.05  1232025.3
161  1232292.1
160.95  1230038.1
160.9  1224722.7
160.85  1218099.8
160.8  1202834.9
160.75  1202023.3
160.7  1190885.6
160.65  1190016.2
160.6  1185137.3
160.55  1184304.1
160.5  1179851.4
160.45  1177120.2
160.4  1175447.4
160.35  1176856.8
160.3  1173774.5
160.25  1172627.5
160.2  1169712.5
160.15  1174337.9
160.1  1168208
160.05  1165594.3
160  1165017.8
159.95  1171616.1
159.9  1172762.8
159.85  1175520
159.8  1168727.2
159.75  1167934.2
159.7  1174971.7
159.65  1172157.4
159.6  1176493.8
159.55  1173123.3
159.5  1163748.5
159.45  1164984.1
159.4  1169248.1
159.35  1170371.9
159.3  1175013.5
159.25  1177349.9
159.2  1174458.8
159.15  1173178.3
159.1  1172105.4
159.05  1171180.2
159  1173612
158.95  1170577.4
158.9  1168912.5
158.85  1169461.4
158.8  1168752.4
158.75  1175685.3
158.7  1176590.7
158.65  1173776.8
158.6  1181011.6
158.55  1182069.2
158.5  1176379.1
158.45  1175855.2
158.4  1178324.8
158.35  1176621.3
158.3  1174682.8
158.25  1174877.5
158.2  1180229.5
158.15  1178094.1
158.1  1176467.6
158.05  1178327.8
158  1177926
157.95  1177814.1
157.9  1176277.6
157.85  1179890.7
157.8  1178078.8
157.75  1180213.4
157.7  1174424.1
157.65  1177360.9
157.6  1184235.5
157.55  1180626.7
157.5  1179636.4
157.45  1181477.1
157.4  1178747.5
157.35  1178492.2
157.3  1179604.9
157.25  1185114.5
157.2  1186513.4
157.15  1181110.6
157.1  1176560.2
157.05  1178174.9
157  1185886.1

